Folder: RamanPL_2D/example-usage/Ramanfit

Note: example-usage/Ramanfit/Raman Sample 633nm Se NW.txt
#Wave		#Intensity
1458.475586	403.924408
1456.743164	419.792877
1455.009766	436.995148
1453.275391	425.351410
1451.541016	419.479492
1449.806641	436.668854
1448.071289	409.185028
1446.335938	432.130035
1444.599609	436.342590
1442.863281	467.907623
1441.126953	428.928345
1439.389648	418.748413
1437.651367	434.469025
1435.913086	424.292725
1434.174805	452.945313
1432.435547	432.706421
1430.696289	436.910034
1428.956055	420.995667
1427.215820	455.366241
1425.475586	420.785461
1423.734375	409.194214
1421.992188	430.623169
1420.250000	420.470184
1418.507813	416.061035
1416.764648	403.048035
1415.021484	420.154968
1413.277344	445.855011
1411.533203	432.844177
1409.788086	432.735901
1408.042969	438.357788
1406.297852	428.222778
1404.551758	448.161133
1402.805664	419.419617
1401.058594	433.625671
1399.310547	419.209564
1397.563477	450.573151
1395.815430	459.040436
1394.066406	437.480286
1392.317383	444.517181
1390.567383	431.545135
1388.817383	421.436707
1387.067383	455.608795
1385.316406	442.643524
1383.565430	429.684753
1381.813477	416.732422
1380.061523	439.456726
1378.308594	436.493500
1376.555664	426.401245
1374.801758	419.165466
1373.047852	430.463165
1371.293945	437.480072
1369.539063	427.397522
1367.784180	457.200378
1366.028320	435.726318
1364.272461	414.262970
1362.515625	441.200073
1360.758789	433.974731
1359.000977	428.175476
1357.243164	446.555695
1355.484375	454.974030
1353.725586	449.173737
1351.966797	422.060150
1350.207031	447.526794
1348.447266	451.675140
1346.686523	437.361267
1344.925781	448.608215
1343.164063	437.140808
1341.402344	428.517029
1339.639648	462.454712
1337.876953	407.027679
1336.113281	429.610687
1334.349609	438.007294
1332.585938	396.799622
1330.821289	419.368011
1329.056641	450.423492
1327.291016	448.893677
1325.525391	436.038879
1323.758789	435.928741
1321.992188	425.913605
1320.224609	421.562042
1318.457031	427.112610
1316.688477	442.557739
1314.919922	436.791565
1313.151367	415.482971
1311.381836	430.919220
1309.612305	443.522614
1307.841797	427.876862
1306.070313	451.768768
1304.299805	444.597290
1302.527344	419.085571
1300.755859	420.390106
1298.982422	409.000824
1297.209961	424.407074
1295.436523	452.492157
1293.662109	436.875427
1291.887695	450.853851
1290.113281	400.031311
1288.337891	463.299011
1286.561523	426.577454
1284.786133	447.581543
1283.008789	424.953857
1281.232422	416.405304
1279.454102	445.834351
1277.676758	431.660522
1275.898438	438.579407
1274.119141	423.009186
1272.339844	462.241364
1270.559570	424.198822
1268.779297	429.708099
1266.999023	416.963593
1265.217773	439.314514
1263.435547	444.815582
1261.654297	430.673950
1259.871094	431.966858
1258.087891	438.867584
1256.304688	434.550537
1254.521484	433.038483
1252.736328	434.329254
1250.952148	411.807343
1249.166992	420.104523
1247.380859	431.197388
1245.594727	410.092987
1243.807617	430.977600
1242.020508	429.468811
1240.233398	425.163605
1238.445313	439.037231
1236.657227	443.118774
1234.868164	426.235779
1233.079102	444.289764
1231.289063	434

Note: README.md
# PLMapping

Python tools for in-depth analysis of photoluminescence (PL) and Raman mapping data acquired from `.wdf` files (Renishaw WiRE format). Supports automated background removal, peak fitting (Lorentzian), residual analysis, and visualisation of peak position/intensity heatmaps.

---

## ğŸ“¦ Features

- Polynomial or Gaussian baseline correction
- Support for multiple peak fitting via custom Lorentzian models
- Residual-based quality check
- Heatmap plotting for peak position and intensity
- Flexible control over fitting ranges and filters
- Integration-ready for Jupyter notebooks

---

## ğŸ“ Project Structure

```python
Project/
â”œâ”€â”€ Improved_PLMapping.py # Core class for PL mapping and analysis
â”œâ”€â”€ example_notebook.ipynb # Example Jupyter workflow
â”œâ”€â”€ requirements.txt # Dependencies
â”œâ”€â”€ README.md # This file
â””â”€â”€ .gitignore # Optional Git exclusions
```

---

## ğŸš€ Quick Start

### 1. Install dependencies

```bash
pip install -r requirements.txt
```

### 2. Run the notebook

Use the provided Jupyter notebook as a guide for using the `Mapping` class:

```python
from Mapping import PLMapping

custom_peaks = {
    'Exciton': ([1.8, 0, 0], [1.88, 10, 10]),
    'Trion':   ([1.76, 0, 0], [1.82, 10, 10])
}

pl_map = PLMapping(
    filename='example.wdf',
    custom_peaks=custom_peaks,
    step_size=0.5,
    poly_degree=2,
    background_remove=True,
    smoothing=True,
    baseline_method='poly',
    data_range=(0, 1012)
)

pl_map.fit_spectra()
pl_map.plot_heatmap(data_type='exciton_position')
```

## Requirements

- Python 3.7+
- Jupyter Notebook (recommended)
- Renishaw .wdf files (requires renishawWiRE module)

## ğŸ“Œ To Do

- Add support for additional baseline methods (e.g. asymmetric least squares)
- Integrate Raman and PL mapping in a unified framework
- Export heatmap and fit data to CSV or HDF5
- Improve interactive diagnostics and batch visualisation

## ğŸ“œ License

This project is licensed for **non-commercial academic use only**.  
Commercial use is prohibited without prior written permission.  
See the [LICENSE](LICENSE) file for details.

## ğŸ™‹ Contact

For issues, questions, or collaboration ideas:  
Hao Yu â€“ [hy377@cam.ac.uk]

File: Raman Sample 532nm 2L-Graphene.txt
#Wave		#Intensity
2827.18	1508.17
2821.73	1545.82
2816.28	1572.12
2810.82	1614.86
2805.35	1602.65
2799.88	1557.55
2794.41	1592.89
2788.93	1518.65
2783.45	1637.85
2777.97	1625.66
2772.48	1637.15
2766.98	1581.29
2761.49	1661.88
2755.98	1604.27
2750.48	1708.32
2744.96	1781.36
2739.45	1676.65
2733.93	1807.55
2728.41	1869.48
2722.88	1811.96
2717.34	1933.4
2711.81	1980.63
2706.27	1915.93
2700.72	1943.26
2695.17	1938.12
2689.62	1916.79
2684.06	1897.29
2678.49	1899.38
2672.93	1885.3
2667.35	1747.45
2661.78	1826.73
2656.2	1726.75
2650.61	1791.6
2645.02	1811.63
2639.43	1806.6
2633.83	1776.58
2628.22	1801.92
2622.62	1656.08
2617	1770.52
2611.39	1726.38
2605.76	1829.91
2600.14	1718.27
2594.51	1796.77
2588.87	1813.06
2583.23	1758.41
2577.59	1826.06
2571.94	1831.66
2566.29	1791.27
2560.63	1818.08
2554.97	1836.02
2549.3	1781.6
2543.63	1864.75
2537.95	1872.03
2532.27	1847.62
2526.58	1803.91
2520.89	1832.3
2515.2	1885.21
2509.5	1825.78
2503.79	1843.56
2498.08	1824.53
2492.37	1910.5
2486.65	1943.89
2480.93	1910.84
2475.2	1935.44
2469.47	1904.2
2463.73	1906.11
2457.99	1988.09
2452.24	2016.01
2446.49	1974.36
2440.73	1986.62
2434.97	1998.85
2429.2	1948.64
2423.43	1927.96
2417.66	1978.28
2411.87	2011.21
2406.09	1957.7
2400.3	2030.3
2394.5	1987.2
2388.7	1935.56
2382.9	1956.32
2377.09	2004.58
2371.27	1989.14
2365.45	1958.27
2359.63	2025.28
2353.8	2030.44
2347.96	1985.89
2342.13	2080.09
2336.28	2033.86
2330.43	2293.64
2324.58	2093.62
2318.72	2059.43
2312.86	2049.16
2306.99	2049.13
2301.11	1994.64
2295.23	2025.26
2289.35	2081.31
2283.46	1986.18
2277.57	2067.6
2271.67	1998.06
2265.77	2038.69
2259.86	2065.72
2253.94	2158.62
2248.02	2116.25
2242.1	2168.44
2236.17	2158.16
2230.24	2041.77
2224.3	2105.67
2218.35	2176.18
2212.4	2273.46
2206.45	2145.6
2200.49	2180.67
2194.53	2264.28
2188.55	2238.89
2182.58	2233.62
2176.6	2216.66
2170.62	2289.92
2164.62	2296.3
2158.63	2280.98
2152.63	2290.68
2146.62	2287.04
2140.61	2305.03
2134.6	2391.11
2128.57	2252.91
2122.55	2305.71
2116.52	2378.3
2110.48	2336.5
2104.44	2314.63
2098.39	2429.99
2092.34	2403.11
2086.28	2346.57
2080.21	2394
2074.15	2438.05
2068.07	2379.98
2061.99	2394.36
2055.91	2462.93
2049.82	2528.09
2043.72	2420.92
2037.62	2577.77
2031.52	2429.81
2025.41	2417.87
2019.29	2472.97
2013.17	2508.38
2007.04	2542.08
2000.91	2512.15
1994.78	2531.13
1988.63	2579.36
1982.48	2516.95
1976.33	2545.61
1970.17	2579.09
1964.01	2589.8
1957.84	2598.87
1951.66	2599.83
1945.48	2540.94
1939.29	2643.74
1933.1	2570.38
1926.91	2650.39
1920.7	2598.09
1914.49	2586.14
1908.28	2627.3
1902.06	2676.42
1895.84	2552
1889.61	2609.12
1883.37	2703.01
1877.13	2705.42
1870.88	2583
1864.63	2740.61
1858.38	2719.01
1852.11	2665.53
1845.84	2699.84
1839.57	2765.96
1833.29	2715.75
1827	2687.88
1820.71	2690.26
1814.42	2695.81
1808.12	2772.72
1801.81	2778.17
1795.49	2751.94
1789.17	2749.49
1782.85	2682.23
1776.52	2766.69
1770.18	2761.06
1763.84	2794.84
1757.49	2800.21
1751.14	2818.16
1744.78	2765.33
1738.42	2786.4
1732.05	2821.56
1725.67	2797.08
1719.29	2802.4
1712.9	2881.26
1706.51	2847.39
1700.11	2918.25
1693.71	2825.09
1687.29	2827.21
1680.88	2877.63
1674.46	2913.94
1668.03	2867.76
1661.6	2922.65
1655.16	2837.73
1648.71	2863.07
1642.26	2832.58
1635.8	2859.42
1629.34	2884.66
1622.87	2866.58
1616.39	2879.41
1609.91	2882.96
1603.43	2969.71
1596.94	3159.46
1590.44	3259.64
1583.93	3112.19
1577.42	3054.06
1570.91	2847.23
1564.38	2864.54
1557.86	2901.72
1551.32	2850.1
1544.78	2827.61
1538.23	2831.11
1531.68	2761.38
1525.12	2831.99
1518.56	2766.94
1511.99	2852.62
1505.41	2734.46
1498.83	2775.97
1492.24	2746.08
1485.64	2731.41
1479.04	2765.21
1472.44	2738.43
1465.82	2655.77
1459.2	2796.76
1452.58	2670.43
1445.95	2761.39
1439.31	2682.01
1432.66	2729.15
1426.01	2664.96
1419.36	2742.05
1412.69	2649.46
1406.02	2658.95
1399.35	2645.97
1392.66	2643.47
1385.98	2696.28
1379.28	2593.69
1372.58	2561.4
1365.87	2539.6
1359.16	2522.3
1352.44	2527.34
1345.71	2502.64
1338.98	2433.45
1332.24	2445.96
1325.49	2468.82
1318.74	2405.76
1311.98	2403.46
1305.22	2412.98
1298.45	2342.75
1295.06	2408.03